File: exp_data/EDS_data/EDS_Etch_Outer.txt
#FORMAT      : EMSA/MAS Spectral Data File
#VERSION     : 1.0
#TITLE       : Etch Outer
#DATE        : 02-JUN-2021
#TIME        : 15:22
#OWNER       :
#NPOINTS     : 1024.0
#NCOLUMNS    : 1.0
#XUNITS      : keV
#YUNITS      : counts
#DATATYPE    : XY
#XPERCHAN    : 0.01
#OFFSET      : -0.1
#SIGNALTYPE  : EDS
#CHOFFSET    : 10.0
#LIVETIME    : 60.5613
#REALTIME    : 73.6124
#BEAMKV      : 10.0
#MAGCAM      : 800.0
#XTILTSTGE   : 0.0
#AZIMANGLE   : 0.0
#ELEVANGLE   : 25.5
#XPOSITION mm: 3.5345
#YPOSITION mm: 7.0698
#ZPOSITION mm: 6.4412
##OXINSTPT   : 6
##OXINSTSTROB: 33.55
##OXINSTELEMS: 13,14,6,8,63,16
##OXINSTLABEL: 13, 1.487, Al
##OXINSTLABEL: 14, 1.740, Si
##OXINSTLABEL: 6, 0.277, C
##OXINSTLABEL: 8, 0.525, O
##OXINSTLABEL: 63, 5.844, Eu
##OXINSTLABEL: 63, 6.456, Eu
##OXINSTLABEL: 63, 6.841, Eu
##OXINSTLABEL: 63, 5.815, Eu
##OXINSTLABEL: 63, 7.477, Eu
##OXINSTLABEL: 63, 7.768, Eu
##OXINSTLABEL: 63, 5.177, Eu
##OXINSTLABEL: 63, 1.131, Eu
##OXINSTLABEL: 63, 1.346, Eu
##OXINSTLABEL: 63, 0.868, Eu
##OXINSTLABEL: 16, 2.308, S
##OXINSTLABEL: 16, 2.464, S
#SPECTRUM    : Spectral Data Starts Here
-0.10000, 0.0
-0.09000, 0.0
-0.08000, 1.0
-0.07000, 0.0
-0.06000, 0.0
-0.05000, 9.0
-0.04000, 48.0
-0.03000, 283.0
-0.02000, 1080.0
-0.01000, 2859.0
0.00000, 5120.0
0.01000, 6100.0
0.02000, 5114.0
0.03000, 3084.0
0.04000, 1368.0
0.05000, 490.0
0.06000, 215.0
0.07000, 227.0
0.08000, 336.0
0.09000, 440.0
0.10000, 423.0
0.11000, 281.0
0.12000, 169.0
0.13000, 99.0
0.14000, 61.0
0.15000, 50.0
0.16000, 43.0
0.17000, 43.0
0.18000, 47.0
0.19000, 50.0
0.20000, 37.0
0.21000, 43.0
0.22000, 61.0
0.23000, 62.0
0.24000, 74.0
0.25000, 110.0
0.26000, 145.0
0.27000, 154.0
0.28000, 146.0
0.29000, 109.0
0.30000, 65.0
0.31000, 43.0
0.32000, 42.0
0.33000, 39.0
0.34000, 37.0
0.35000, 48.0
0.36000, 48.0
0.37000, 50.0
0.38000, 58.0
0.39000, 72.0
0.40000, 77.0
0.41000, 65.0
0.42000, 68.0
0.43000, 83.0
0.44000, 101.0
0.45000, 104.0
0.46000, 107.0
0.47000, 110.0
0.48000, 129.0
0.49000, 168.0
0.50000, 197.0
0.51000, 227.0
0.52000, 264.0
0.53000, 257.0
0.54000, 212.0
0.55000, 187.0
0.56000, 152.0
0.57000, 124.0
0.58000, 137.0
0.59000, 150.0
0.60000, 132.0
0.61000, 134.0
0.62000, 152.0
0.63000, 148.0
0.64000, 166.0
0.65000, 187.0
0.66000, 188.0
0.67000, 188.0
0.68000, 187.0
0.69000, 195.0
0.70000, 200.0
0.71000, 208.0
0.72000, 204.0
0.73000, 206.0
0.74000, 210.0
0.75000, 198.0
0.76000, 238.0
0.77000, 230.0
0.78000, 223.0
0.79000, 230.0
0.80000, 223.0
0.81000, 234.0
0.82000, 253.0
0.83000, 254.0
0.84000, 268.0
0.85000, 293.0
0.86000, 291.0
0.87000, 283.0
0.88000, 296.0
0.89000, 306.0
0.90000, 306.0
0.91000, 305.0
0.92000, 297.0
0.93000, 264.0
0.94000, 271.0
0.95000, 284.0
0.96000, 281.0
0.97000, 273.0
0.98000, 265.0
0.99000, 253.0
1.00000, 259.0
1.01000, 275.0
1.02000, 272.0
1.03000, 269.0
1.04000, 264.0
1.05000, 278.0
1.06000, 277.0
1.07000, 263.0
1.08000, 296.0
1.09000, 320.0
1.10000, 313.0
1.11000, 320.0
1.12000, 349.0
1.13000, 376.0
1.14000, 380.0
1.15000, 361.0
1.16000, 362.0
1.17000, 351.0
1.18000, 317.0
1.19000, 270.0
1.20000, 243.0
1.21000, 246.0
1.22000, 264.0
1.23000, 258.0
1.24000, 251.0
1.25000, 243.0
1.26000, 237.0
1.27000, 244.0
1.28000, 246.0
1.29000, 249.0
1.30000, 242.0
1.31000, 253.0
1.32000, 257.0
1.33000, 241.0
1.34000, 267.0
1.35000, 251.0
1.36000, 244.0
1.37000, 252.0
1.38000, 257.0
1.39000, 240.0
1.40000, 234.0
1.41000, 255.0
1.42000, 274.0
1.43000, 252.0
1.44000, 258.0
1.45000, 302.0
1.46000, 313.0
1.47000, 303.0
1.48000, 320.0
1.49000, 330.0
1.50000, 338.0
1.51000, 323.0
1.52000, 301.0
1.53000, 312.0
1.54000, 318.0
1.55000, 316.0
1.56000, 321.0
1.57000, 310.0
1.58000, 315.0
1.59000, 328.0
1.60000, 313.0
1.61000, 318.0
1.62000, 307.0
1.63000, 312.0
1.64000, 400.0
1.65000, 573.0
1.66000, 1031.0
1.67000, 1985.0
1.68000, 3807.0
1.69000, 6624.0
1.70000, 10673.0
1.71000, 15613.0
1.72000, 20786.0
1.73000, 25046.0
1.74000, 27530.0
1.75000, 27263.0
1.76000, 24380.0
1.77000, 19770.0
1.78000, 14702.0
1.79000, 10035.0
1.80000, 6438.0
1.81000, 4085.0
1.82000, 2712.0
1.83000, 1946.0
1.84000, 1526.0
1.85000, 1264.0
1.86000, 1027.0
1.87000, 821.0
1.88000, 616.0
1.89000, 428.0
1.90000, 304.0
1.91000, 226.0
1.92000, 159.0
1.93000, 107.0
1.94000, 88.0
1.95000, 91.0
1.96000, 83.0
1.97000, 81.0
1.98000, 82.0
1.99000, 88.0
2.00000, 92.0
2.01000, 85.0
2.02000, 82.0
2.03000, 92.0
2.04000, 94.0
2.05000, 86.0
2.06000, 87.0
2.07000, 89.0
2.08000, 93.0
2.09000, 97.0
2.10000, 96.0
2.11000, 85.0
2.12000, 95.0
2.13000, 94.0
2.14000, 90.0
2.15000, 95.0
2.16000, 87.0
2.17000, 76.0
2.18000, 75.0
2.19000, 89.0
2.20000, 93.0
2.21000, 97.0
2.22000, 87.0
2.23000, 87.0
2.24000, 96.0
2.25000, 102.0
2.26000, 122.0
2.27000, 147.0
2.28000, 146.0
2.29000, 160.0
2.30000, 177.0
2.31000, 180.0
2.32000, 167.0
2.33000, 160.0
2.34000, 161.0
2.35000, 158.0
2.36000, 138.0
2.37000, 109.0
2.38000, 104.0
2.39000, 114.0
2.40000, 101.0
2.41000, 90.0
2.42000, 94.0
2.43000, 102.0
2.44000, 95.0
2.45000, 77.0
2.46000, 84.0
2.47000, 90.0
2.48000, 112.0
2.49000, 111.0
2.50000, 92.0
2.51000, 91.0
2.52000, 89.0
2.53000, 83.0
2.54000, 88.0
2.55000, 86.0
2.56000, 96.0
2.57000, 87.0
2.58000, 93.0
2.59000, 96.0
2.60000, 83.0
2.61000, 77.0
2.62000, 86.0
2.63000, 86.0
2.64000, 86.0
2.65000, 81.0
2.66000, 77.0
2.67000, 80.0
2.68000, 70.0
2.69000, 75.0
2.70000, 75.0
2.71000, 77.0
2.72000, 79.0
2.73000, 77.0
2.74000, 76.0
2.75000, 75.0
2.76000, 76.0
2.77000, 82.0
2.78000, 77.0
2.79000, 82.0
2.80000, 83.0
2.81000, 75.0
2.82000, 73.0
2.83000, 77.0
2.84000, 82.0
2.85000, 82.0
2.86000, 84.0
2.87000, 90.0
2.88000, 98.0
2.89000, 96.0
2.90000, 85.0
2.91000, 78.0
2.92000, 78.0
2.93000, 77.0
2.94000, 72.0
2.95000, 74.0
2.96000, 76.0
2.97000, 74.0
2.98000, 73.0
2.99000, 70.0
3.00000, 66.0
3.01000, 74.0
3.02000, 77.0
3.03000, 71.0
3.04000, 69.0
3.05000, 75.0
3.06000, 75.0
3.07000, 75.0
3.08000, 79.0
3.09000, 78.0
3.10000, 74.0
3.11000, 80.0
3.12000, 79.0
3.13000, 80.0
3.14000, 82.0
3.15000, 72.0
3.16000, 67.0
3.17000, 73.0
3.18000, 79.0
3.19000, 79.0
3.20000, 73.0
3.21000, 76.0
3.22000, 70.0
3.23000, 65.0
3.24000, 59.0
3.25000, 58.0
3.26000, 62.0
3.27000, 69.0
3.28000, 72.0
3.29000, 70.0
3.30000, 73.0
3.31000, 75.0
3.32000, 71.0
3.33000, 67.0
3.34000, 64.0
3.35000, 66.0
3.36000, 66.0
3.37000, 66.0
3.38000, 69.0
3.39000, 80.0
3.40000, 76.0
3.41000, 65.0
3.42000, 59.0
3.43000, 72.0
3.44000, 86.0
3.45000, 93.0
3.46000, 102.0
3.47000, 96.0
3.48000, 84.0
3.49000, 102.0
3.50000, 99.0
3.51000, 89.0
3.52000, 80.0
3.53000, 85.0
3.54000, 83.0
3.55000, 68.0
3.56000, 67.0
3.57000, 65.0
3.58000, 67.0
3.59000, 71.0
3.60000, 65.0
3.61000, 62.0
3.62000, 59.0
3.63000, 62.0
3.64000, 51.0
3.65000, 51.0
3.66000, 58.0
3.67000, 58.0
3.68000, 60.0
3.69000, 54.0
3.70000, 56.0
3.71000, 55.0
3.72000, 49.0
3.73000, 59.0
3.74000, 56.0
3.75000, 58.0
3.76000, 60.0
3.77000, 56.0
3.78000, 63.0
3.79000, 66.0
3.80000, 59.0
3.81000, 67.0
3.82000, 70.0
3.83000, 56.0
3.84000, 50.0
3.85000, 58.0
3.86000, 70.0
3.87000, 63.0
3.88000, 59.0
3.89000, 59.0
3.90000, 48.0
3.91000, 42.0
3.92000, 52.0
3.93000, 61.0
3.94000, 64.0
3.95000, 56.0
3.96000, 50.0
3.97000, 49.0
3.98000, 47.0
3.99000, 50.0
4.00000, 56.0
4.01000, 56.0
4.02000, 61.0
4.03000, 68.0
4.04000, 63.0
4.05000, 57.0
4.06000, 54.0
4.07000, 52.0
4.08000, 52.0
4.09000, 57.0
4.10000, 66.0
4.11000, 56.0
4.12000, 40.0
4.13000, 48.0
4.14000, 57.0
4.15000, 52.0
4.16000, 52.0
4.17000, 52.0
4.18000, 52.0
4.19000, 56.0
4.20000, 53.0
4.21000, 39.0
4.22000, 44.0
4.23000, 50.0
4.24000, 42.0
4.25000, 45.0
4.26000, 52.0
4.27000, 47.0
4.28000, 35.0
4.29000, 44.0
4.30000, 41.0
4.31000, 42.0
4.32000, 48.0
4.33000, 45.0
4.34000, 46.0
4.35000, 49.0
4.36000, 45.0
4.37000, 48.0
4.38000, 42.0
4.39000, 41.0
4.40000, 46.0
4.41000, 51.0
4.42000, 49.0
4.43000, 40.0
4.44000, 35.0
4.45000, 37.0
4.46000, 50.0
4.47000, 45.0
4.48000, 39.0
4.49000, 40.0
4.50000, 43.0
4.51000, 43.0
4.52000, 44.0
4.53000, 58.0
4.54000, 57.0
4.55000, 46.0
4.56000, 40.0
4.57000, 40.0
4.58000, 39.0
4.59000, 38.0
4.60000, 41.0
4.61000, 45.0
4.62000, 46.0
4.63000, 40.0
4.64000, 43.0
4.65000, 46.0
4.66000, 37.0
4.67000, 39.0
4.68000, 46.0
4.69000, 40.0
4.70000, 38.0
4.71000, 38.0
4.72000, 32.0
4.73000, 35.0
4.74000, 37.0
4.75000, 41.0
4.76000, 42.0
4.77000, 39.0
4.78000, 40.0
4.79000, 31.0
4.80000, 28.0
4.81000, 38.0
4.82000, 45.0
4.83000, 42.0
4.84000, 39.0
4.85000, 36.0
4.86000, 37.0
4.87000, 34.0
4.88000, 31.0
4.89000, 39.0
4.90000, 40.0
4.91000, 41.0
4.92000, 35.0
4.93000, 38.0
4.94000, 43.0
4.95000, 37.0
4.96000, 35.0
4.97000, 40.0
4.98000, 41.0
4.99000, 43.0
5.00000, 40.0
5.01000, 37.0
5.02000, 35.0
5.03000, 38.0
5.04000, 37.0
5.05000, 34.0
5.06000, 35.0
5.07000, 36.0
5.08000, 35.0
5.09000, 34.0
5.10000, 36.0
5.11000, 35.0
5.12000, 35.0
5.13000, 34.0
5.14000, 31.0
5.15000, 37.0
5.16000, 39.0
5.17000, 32.0
5.18000, 31.0
5.19000, 37.0
5.20000, 38.0
5.21000, 38.0
5.22000, 39.0
5.23000, 36.0
5.24000, 37.0
5.25000, 30.0
5.26000, 29.0
5.27000, 34.0
5.28000, 37.0
5.29000, 34.0
5.30000, 33.0
5.31000, 36.0
5.32000, 29.0
5.33000, 27.0
5.34000, 32.0
5.35000, 38.0
5.36000, 36.0
5.37000, 31.0
5.38000, 32.0
5.39000, 27.0
5.40000, 27.0
5.41000, 30.0
5.42000, 26.0
5.43000, 25.0
5.44000, 30.0
5.45000, 26.0
5.46000, 29.0
5.47000, 36.0
5.48000, 37.0
5.49000, 34.0
5.50000, 32.0
5.51000, 28.0
5.52000, 27.0
5.53000, 32.0
5.54000, 35.0
5.55000, 29.0
5.56000, 26.0
5.57000, 33.0
5.58000, 40.0
5.59000, 40.0
5.60000, 41.0
5.61000, 34.0
5.62000, 29.0
5.63000, 35.0
5.64000, 33.0
5.65000, 26.0
5.66000, 26.0
5.67000, 27.0
5.68000, 32.0
5.69000, 31.0
5.70000, 27.0
5.71000, 29.0
5.72000, 32.0
5.73000, 27.0
5.74000, 22.0
5.75000, 26.0
5.76000, 25.0
5.77000, 28.0
5.78000, 41.0
5.79000, 43.0
5.80000, 38.0
5.81000, 34.0
5.82000, 41.0
5.83000, 48.0
5.84000, 50.0
5.85000, 50.0
5.86000, 57.0
5.87000, 55.0
5.88000, 52.0
5.89000, 48.0
5.90000, 46.0
5.91000, 42.0
5.92000, 35.0
5.93000, 40.0
5.94000, 36.0
5.95000, 28.0
5.96000, 25.0
5.97000, 24.0
5.98000, 23.0
5.99000, 23.0
6.00000, 26.0
6.01000, 27.0
6.02000, 30.0
6.03000, 26.0
6.04000, 19.0
6.05000, 21.0
6.06000, 23.0
6.07000, 19.0
6.08000, 21.0
6.09000, 21.0
6.10000, 19.0
6.11000, 22.0
6.12000, 25.0
6.13000, 27.0
6.14000, 25.0
6.15000, 26.0
6.16000, 23.0
6.17000, 23.0
6.18000, 25.0
6.19000, 26.0
6.20000, 25.0
6.21000, 25.0
6.22000, 24.0
6.23000, 24.0
6.24000, 29.0
6.25000, 30.0
6.26000, 24.0
6.27000, 26.0
6.28000, 25.0
6.29000, 21.0
6.30000, 23.0
6.31000, 20.0
6.32000, 17.0
6.33000, 22.0
6.34000, 23.0
6.35000, 22.0
6.36000, 20.0
6.37000, 21.0
6.38000, 21.0
6.39000, 21.0
6.40000, 23.0
6.41000, 25.0
6.42000, 31.0
6.43000, 34.0
6.44000, 31.0
6.45000, 28.0
6.46000, 24.0
6.47000, 27.0
6.48000, 35.0
6.49000, 29.0
6.50000, 25.0
6.51000, 22.0
6.52000, 21.0
6.53000, 25.0
6.54000, 23.0
6.55000, 18.0
6.56000, 18.0
6.57000, 24.0
6.58000, 22.0
6.59000, 20.0
6.60000, 25.0
6.61000, 27.0
6.62000, 22.0
6.63000, 21.0
6.64000, 21.0
6.65000, 20.0
6.66000, 17.0
6.67000, 16.0
6.68000, 26.0
6.69000, 30.0
6.70000, 26.0
6.71000, 24.0
6.72000, 21.0
6.73000, 19.0
6.74000, 18.0
6.75000, 19.0
6.76000, 22.0
6.77000, 22.0
6.78000, 21.0
6.79000, 15.0
6.80000, 18.0
6.81000, 22.0
6.82000, 21.0
6.83000, 22.0
6.84000, 22.0
6.85000, 24.0
6.86000, 24.0
6.87000, 25.0
6.88000, 20.0
6.89000, 16.0
6.90000, 17.0
6.91000, 18.0
6.92000, 25.0
6.93000, 23.0
6.94000, 17.0
6.95000, 15.0
6.96000, 17.0
6.97000, 17.0
6.98000, 15.0
6.99000, 18.0
7.00000, 16.0
7.01000, 10.0
7.02000, 12.0
7.03000, 15.0
7.04000, 13.0
7.05000, 12.0
7.06000, 18.0
7.07000, 18.0
7.08000, 12.0
7.09000, 18.0
7.10000, 17.0
7.11000, 11.0
7.12000, 15.0
7.13000, 18.0
7.14000, 15.0
7.15000, 13.0
7.16000, 16.0
7.17000, 18.0
7.18000, 12.0
7.19000, 12.0
7.20000, 20.0
7.21000, 17.0
7.22000, 13.0
7.23000, 11.0
7.24000, 16.0
7.25000, 18.0
7.26000, 13.0
7.27000, 15.0
7.28000, 19.0
7.29000, 14.0
7.30000, 7.0
7.31000, 11.0
7.32000, 14.0
7.33000, 13.0
7.34000, 16.0
7.35000, 18.0
7.36000, 13.0
7.37000, 15.0
7.38000, 17.0
7.39000, 16.0
7.40000, 14.0
7.41000, 11.0
7.42000, 13.0
7.43000, 20.0
7.44000, 18.0
7.45000, 12.0
7.46000, 13.0
7.47000, 12.0
7.48000, 14.0
7.49000, 13.0
7.50000, 10.0
7.51000, 8.0
7.52000, 11.0
7.53000, 14.0
7.54000, 13.0
7.55000, 14.0
7.56000, 14.0
7.57000, 16.0
7.58000, 14.0
7.59000, 14.0
7.60000, 14.0
7.61000, 12.0
7.62000, 14.0
7.63000, 17.0
7.64000, 15.0
7.65000, 11.0
7.66000, 10.0
7.67000, 13.0
7.68000, 14.0
7.69000, 10.0
7.70000, 8.0
7.71000, 14.0
7.72000, 15.0
7.73000, 12.0
7.74000, 15.0
7.75000, 18.0
7.76000, 13.0
7.77000, 9.0
7.78000, 11.0
7.79000, 13.0
7.80000, 15.0
7.81000, 11.0
7.82000, 11.0
7.83000, 13.0
7.84000, 12.0
7.85000, 14.0
7.86000, 11.0
7.87000, 10.0
7.88000, 11.0
7.89000, 9.0
7.90000, 6.0
7.91000, 7.0
7.92000, 10.0
7.93000, 8.0
7.94000, 9.0
7.95000, 10.0
7.96000, 9.0
7.97000, 10.0
7.98000, 8.0
7.99000, 8.0
8.00000, 9.0
8.01000, 10.0
8.02000, 12.0
8.03000, 9.0
8.04000, 7.0
8.05000, 10.0
8.06000, 7.0
8.07000, 8.0
8.08000, 11.0
8.09000, 9.0
8.10000, 11.0
8.11000, 10.0
8.12000, 12.0
8.13000, 11.0
8.14000, 7.0
8.15000, 7.0
8.16000, 11.0
8.17000, 10.0
8.18000, 7.0
8.19000, 9.0
8.20000, 11.0
8.21000, 8.0
8.22000, 7.0
8.23000, 6.0
8.24000, 5.0
8.25000, 7.0
8.26000, 7.0
8.27000, 8.0
8.28000, 8.0
8.29000, 10.0
8.30000, 10.0
8.31000, 10.0
8.32000, 9.0
8.33000, 9.0
8.34000, 10.0
8.35000, 9.0
8.36000, 9.0
8.37000, 8.0
8.38000, 8.0
8.39000, 8.0
8.40000, 6.0
8.41000, 6.0
8.42000, 6.0
8.43000, 7.0
8.44000, 10.0
8.45000, 8.0
8.46000, 7.0
8.47000, 9.0
8.48000, 9.0
8.49000, 9.0
8.50000, 8.0
8.51000, 7.0
8.52000, 7.0
8.53000, 8.0
8.54000, 11.0
8.55000, 8.0
8.56000, 7.0
8.57000, 8.0
8.58000, 10.0
8.59000, 8.0
8.60000, 7.0
8.61000, 8.0
8.62000, 6.0
8.63000, 7.0
8.64000, 8.0
8.65000, 6.0
8.66000, 5.0
8.67000, 6.0
8.68000, 6.0
8.69000, 8.0
8.70000, 7.0
8.71000, 6.0
8.72000, 7.0
8.73000, 7.0
8.74000, 7.0
8.75000, 8.0
8.76000, 10.0
8.77000, 9.0
8.78000, 8.0
8.79000, 7.0
8.80000, 7.0
8.81000, 7.0
8.82000, 4.0
8.83000, 4.0
8.84000, 6.0
8.85000, 5.0
8.86000, 6.0
8.87000, 7.0
8.88000, 8.0
8.89000, 8.0
8.90000, 8.0
8.91000, 7.0
8.92000, 7.0
8.93000, 7.0
8.94000, 6.0
8.95000, 5.0
8.96000, 6.0
8.97000, 5.0
8.98000, 6.0
8.99000, 7.0
9.00000, 4.0
9.01000, 5.0
9.02000, 6.0
9.03000, 2.0
9.04000, 2.0
9.05000, 4.0
9.06000, 5.0
9.07000, 6.0
9.08000, 5.0
9.09000, 3.0
9.10000, 4.0
9.11000, 5.0
9.12000, 4.0
9.13000, 3.0
9.14000, 4.0
9.15000, 4.0
9.16000, 6.0
9.17000, 8.0
9.18000, 6.0
9.19000, 5.0
9.20000, 4.0
9.21000, 4.0
9.22000, 2.0
9.23000, 4.0
9.24000, 4.0
9.25000, 2.0
9.26000, 4.0
9.27000, 3.0
9.28000, 3.0
9.29000, 4.0
9.30000, 5.0
9.31000, 5.0
9.32000, 4.0
9.33000, 5.0
9.34000, 4.0
9.35000, 3.0
9.36000, 4.0
9.37000, 4.0
9.38000, 2.0
9.39000, 2.0
9.40000, 3.0
9.41000, 5.0
9.42000, 6.0
9.43000, 3.0
9.44000, 3.0
9.45000, 3.0
9.46000, 3.0
9.47000, 4.0
9.48000, 2.0
9.49000, 1.0
9.50000, 1.0
9.51000, 2.0
9.52000, 3.0
9.53000, 2.0
9.54000, 2.0
9.55000, 2.0
9.56000, 2.0
9.57000, 2.0
9.58000, 3.0
9.59000, 3.0
9.60000, 5.0
9.61000, 4.0
9.62000, 2.0
9.63000, 4.0
9.64000, 2.0
9.65000, 1.0
9.66000, 2.0
9.67000, 2.0
9.68000, 3.0
9.69000, 5.0
9.70000, 3.0
9.71000, 2.0
9.72000, 2.0
9.73000, 2.0
9.74000, 3.0
9.75000, 1.0
9.76000, 1.0
9.77000, 1.0
9.78000, 3.0
9.79000, 4.0
9.80000, 5.0
9.81000, 3.0
9.82000, 2.0
9.83000, 3.0
9.84000, 2.0
9.85000, 2.0
9.86000, 2.0
9.87000, 2.0
9.88000, 4.0
9.89000, 4.0
9.90000, 3.0
9.91000, 3.0
9.92000, 2.0
9.93000, 1.0
9.94000, 1.0
9.95000, 2.0
9.96000, 1.0
9.97000, 0.0
9.98000, 1.0
9.99000, 1.0
10.00000, 1.0
10.01000, 0.0
10.02000, 1.0
10.03000, 2.0
10.04000, 1.0
10.05000, 1.0
10.06000, 2.0
10.07000, 1.0
10.08000, 0.0
10.09000, 0.0
10.10000, 0.0
10.11000, 1.0
10.12000, 1.0
10.13000, 0.0
#ENDOFDATA   :