File: exp_data/EDS_data/EDS_Un-etched.txt
#FORMAT      : EMSA/MAS Spectral Data File
#VERSION     : 1.0
#TITLE       : Un-etched
#DATE        : 02-JUN-2021
#TIME        : 15:25
#OWNER       :
#NPOINTS     : 1024.0
#NCOLUMNS    : 1.0
#XUNITS      : keV
#YUNITS      : counts
#DATATYPE    : XY
#XPERCHAN    : 0.01
#OFFSET      : -0.1
#SIGNALTYPE  : EDS
#CHOFFSET    : 10.0
#LIVETIME    : 60.1418
#REALTIME    : 72.923
#BEAMKV      : 10.0
#MAGCAM      : 800.0
#XTILTSTGE   : 0.0
#AZIMANGLE   : 0.0
#ELEVANGLE   : 25.5
#XPOSITION mm: 3.5345
#YPOSITION mm: 7.0698
#ZPOSITION mm: 6.4412
##OXINSTPT   : 6
##OXINSTSTROB: 33.62
##OXINSTELEMS: 13,14,6,8,16,63
##OXINSTLABEL: 13, 1.487, Al
##OXINSTLABEL: 14, 1.740, Si
##OXINSTLABEL: 6, 0.277, C
##OXINSTLABEL: 8, 0.525, O
##OXINSTLABEL: 16, 2.308, S
##OXINSTLABEL: 16, 2.464, S
##OXINSTLABEL: 63, 5.844, Eu
##OXINSTLABEL: 63, 6.456, Eu
##OXINSTLABEL: 63, 6.841, Eu
##OXINSTLABEL: 63, 5.815, Eu
##OXINSTLABEL: 63, 7.477, Eu
##OXINSTLABEL: 63, 7.768, Eu
##OXINSTLABEL: 63, 5.177, Eu
##OXINSTLABEL: 63, 1.131, Eu
##OXINSTLABEL: 63, 1.346, Eu
##OXINSTLABEL: 63, 0.868, Eu
#SPECTRUM    : Spectral Data Starts Here
-0.10000, 0.0
-0.09000, 0.0
-0.08000, 0.0
-0.07000, 0.0
-0.06000, 3.0
-0.05000, 12.0
-0.04000, 51.0
-0.03000, 287.0
-0.02000, 1087.0
-0.01000, 2875.0
0.00000, 5023.0
0.01000, 6044.0
0.02000, 5024.0
0.03000, 2989.0
0.04000, 1362.0
0.05000, 488.0
0.06000, 179.0
0.07000, 170.0
0.08000, 239.0
0.09000, 298.0
0.10000, 269.0
0.11000, 185.0
0.12000, 113.0
0.13000, 62.0
0.14000, 53.0
0.15000, 58.0
0.16000, 47.0
0.17000, 41.0
0.18000, 35.0
0.19000, 34.0
0.20000, 30.0
0.21000, 38.0
0.22000, 54.0
0.23000, 68.0
0.24000, 83.0
0.25000, 98.0
0.26000, 135.0
0.27000, 151.0
0.28000, 128.0
0.29000, 103.0
0.30000, 76.0
0.31000, 46.0
0.32000, 36.0
0.33000, 35.0
0.34000, 40.0
0.35000, 54.0
0.36000, 52.0
0.37000, 55.0
0.38000, 62.0
0.39000, 64.0
0.40000, 55.0
0.41000, 68.0
0.42000, 72.0
0.43000, 80.0
0.44000, 89.0
0.45000, 97.0
0.46000, 106.0
0.47000, 120.0
0.48000, 129.0
0.49000, 168.0
0.50000, 212.0
0.51000, 234.0
0.52000, 258.0
0.53000, 263.0
0.54000, 225.0
0.55000, 175.0
0.56000, 144.0
0.57000, 133.0
0.58000, 134.0
0.59000, 137.0
0.60000, 140.0
0.61000, 154.0
0.62000, 140.0
0.63000, 147.0
0.64000, 164.0
0.65000, 165.0
0.66000, 194.0
0.67000, 197.0
0.68000, 189.0
0.69000, 197.0
0.70000, 194.0
0.71000, 195.0
0.72000, 186.0
0.73000, 194.0
0.74000, 230.0
0.75000, 226.0
0.76000, 223.0
0.77000, 222.0
0.78000, 223.0
0.79000, 230.0
0.80000, 246.0
0.81000, 234.0
0.82000, 245.0
0.83000, 264.0
0.84000, 288.0
0.85000, 294.0
0.86000, 291.0
0.87000, 313.0
0.88000, 314.0
0.89000, 300.0
0.90000, 291.0
0.91000, 313.0
0.92000, 297.0
0.93000, 275.0
0.94000, 269.0
0.95000, 275.0
0.96000, 259.0
0.97000, 256.0
0.98000, 276.0
0.99000, 280.0
1.00000, 284.0
1.01000, 296.0
1.02000, 265.0
1.03000, 275.0
1.04000, 267.0
1.05000, 270.0
1.06000, 298.0
1.07000, 296.0
1.08000, 283.0
1.09000, 301.0
1.10000, 300.0
1.11000, 314.0
1.12000, 357.0
1.13000, 367.0
1.14000, 388.0
1.15000, 396.0
1.16000, 359.0
1.17000, 341.0
1.18000, 303.0
1.19000, 264.0
1.20000, 265.0
1.21000, 269.0
1.22000, 266.0
1.23000, 260.0
1.24000, 243.0
1.25000, 221.0
1.26000, 253.0
1.27000, 246.0
1.28000, 252.0
1.29000, 275.0
1.30000, 250.0
1.31000, 244.0
1.32000, 254.0
1.33000, 272.0
1.34000, 280.0
1.35000, 262.0
1.36000, 264.0
1.37000, 268.0
1.38000, 248.0
1.39000, 242.0
1.40000, 247.0
1.41000, 255.0
1.42000, 293.0
1.43000, 312.0
1.44000, 321.0
1.45000, 384.0
1.46000, 456.0
1.47000, 503.0
1.48000, 541.0
1.49000, 570.0
1.50000, 564.0
1.51000, 532.0
1.52000, 467.0
1.53000, 395.0
1.54000, 372.0
1.55000, 372.0
1.56000, 369.0
1.57000, 347.0
1.58000, 304.0
1.59000, 294.0
1.60000, 309.0
1.61000, 305.0
1.62000, 300.0
1.63000, 331.0
1.64000, 397.0
1.65000, 573.0
1.66000, 974.0
1.67000, 1872.0
1.68000, 3563.0
1.69000, 6310.0
1.70000, 10248.0
1.71000, 15127.0
1.72000, 20217.0
1.73000, 24611.0
1.74000, 26806.0
1.75000, 26548.0
1.76000, 23750.0
1.77000, 19245.0
1.78000, 14278.0
1.79000, 9836.0
1.80000, 6363.0
1.81000, 4027.0
1.82000, 2657.0
1.83000, 1897.0
1.84000, 1486.0
1.85000, 1261.0
1.86000, 1060.0
1.87000, 829.0
1.88000, 625.0
1.89000, 437.0
1.90000, 280.0
1.91000, 190.0
1.92000, 151.0
1.93000, 121.0
1.94000, 100.0
1.95000, 84.0
1.96000, 82.0
1.97000, 87.0
1.98000, 97.0
1.99000, 92.0
2.00000, 86.0
2.01000, 84.0
2.02000, 91.0
2.03000, 84.0
2.04000, 80.0
2.05000, 90.0
2.06000, 81.0
2.07000, 75.0
2.08000, 77.0
2.09000, 88.0
2.10000, 87.0
2.11000, 88.0
2.12000, 93.0
2.13000, 89.0
2.14000, 87.0
2.15000, 89.0
2.16000, 78.0
2.17000, 82.0
2.18000, 85.0
2.19000, 85.0
2.20000, 80.0
2.21000, 90.0
2.22000, 99.0
2.23000, 104.0
2.24000, 117.0
2.25000, 111.0
2.26000, 114.0
2.27000, 145.0
2.28000, 153.0
2.29000, 168.0
2.30000, 195.0
2.31000, 202.0
2.32000, 189.0
2.33000, 179.0
2.34000, 171.0
2.35000, 139.0
2.36000, 123.0
2.37000, 111.0
2.38000, 103.0
2.39000, 111.0
2.40000, 98.0
2.41000, 91.0
2.42000, 93.0
2.43000, 88.0
2.44000, 94.0
2.45000, 92.0
2.46000, 86.0
2.47000, 90.0
2.48000, 90.0
2.49000, 93.0
2.50000, 92.0
2.51000, 89.0
2.52000, 83.0
2.53000, 85.0
2.54000, 88.0
2.55000, 87.0
2.56000, 86.0
2.57000, 94.0
2.58000, 105.0
2.59000, 101.0
2.60000, 94.0
2.61000, 85.0
2.62000, 85.0
2.63000, 93.0
2.64000, 98.0
2.65000, 93.0
2.66000, 78.0
2.67000, 79.0
2.68000, 91.0
2.69000, 93.0
2.70000, 85.0
2.71000, 83.0
2.72000, 86.0
2.73000, 82.0
2.74000, 80.0
2.75000, 77.0
2.76000, 77.0
2.77000, 86.0
2.78000, 93.0
2.79000, 82.0
2.80000, 74.0
2.81000, 80.0
2.82000, 85.0
2.83000, 78.0
2.84000, 78.0
2.85000, 75.0
2.86000, 65.0
2.87000, 78.0
2.88000, 85.0
2.89000, 75.0
2.90000, 77.0
2.91000, 76.0
2.92000, 71.0
2.93000, 71.0
2.94000, 77.0
2.95000, 74.0
2.96000, 75.0
2.97000, 76.0
2.98000, 66.0
2.99000, 67.0
3.00000, 70.0
3.01000, 79.0
3.02000, 76.0
3.03000, 69.0
3.04000, 67.0
3.05000, 67.0
3.06000, 72.0
3.07000, 80.0
3.08000, 84.0
3.09000, 70.0
3.10000, 61.0
3.11000, 65.0
3.12000, 78.0
3.13000, 84.0
3.14000, 71.0
3.15000, 72.0
3.16000, 69.0
3.17000, 61.0
3.18000, 73.0
3.19000, 75.0
3.20000, 73.0
3.21000, 69.0
3.22000, 74.0
3.23000, 73.0
3.24000, 68.0
3.25000, 70.0
3.26000, 69.0
3.27000, 63.0
3.28000, 68.0
3.29000, 72.0
3.30000, 78.0
3.31000, 65.0
3.32000, 60.0
3.33000, 65.0
3.34000, 69.0
3.35000, 68.0
3.36000, 69.0
3.37000, 71.0
3.38000, 73.0
3.39000, 71.0
3.40000, 69.0
3.41000, 63.0
3.42000, 73.0
3.43000, 81.0
3.44000, 71.0
3.45000, 75.0
3.46000, 83.0
3.47000, 90.0
3.48000, 98.0
3.49000, 100.0
3.50000, 104.0
3.51000, 95.0
3.52000, 87.0
3.53000, 81.0
3.54000, 78.0
3.55000, 75.0
3.56000, 74.0
3.57000, 74.0
3.58000, 73.0
3.59000, 75.0
3.60000, 70.0
3.61000, 67.0
3.62000, 65.0
3.63000, 57.0
3.64000, 58.0
3.65000, 62.0
3.66000, 62.0
3.67000, 56.0
3.68000, 52.0
3.69000, 58.0
3.70000, 58.0
3.71000, 55.0
3.72000, 56.0
3.73000, 51.0
3.74000, 48.0
3.75000, 48.0
3.76000, 50.0
3.77000, 61.0
3.78000, 61.0
3.79000, 60.0
3.80000, 59.0
3.81000, 58.0
3.82000, 54.0
3.83000, 57.0
3.84000, 62.0
3.85000, 55.0
3.86000, 56.0
3.87000, 57.0
3.88000, 60.0
3.89000, 61.0
3.90000, 59.0
3.91000, 57.0
3.92000, 65.0
3.93000, 62.0
3.94000, 58.0
3.95000, 60.0
3.96000, 50.0
3.97000, 50.0
3.98000, 58.0
3.99000, 54.0
4.00000, 59.0
4.01000, 53.0
4.02000, 48.0
4.03000, 60.0
4.04000, 54.0
4.05000, 49.0
4.06000, 55.0
4.07000, 52.0
4.08000, 58.0
4.09000, 60.0
4.10000, 52.0
4.11000, 53.0
4.12000, 56.0
4.13000, 53.0
4.14000, 53.0
4.15000, 54.0
4.16000, 55.0
4.17000, 53.0
4.18000, 47.0
4.19000, 47.0
4.20000, 50.0
4.21000, 53.0
4.22000, 49.0
4.23000, 41.0
4.24000, 40.0
4.25000, 47.0
4.26000, 45.0
4.27000, 40.0
4.28000, 41.0
4.29000, 50.0
4.30000, 56.0
4.31000, 54.0
4.32000, 48.0
4.33000, 47.0
4.34000, 53.0
4.35000, 56.0
4.36000, 55.0
4.37000, 51.0
4.38000, 51.0
4.39000, 54.0
4.40000, 49.0
4.41000, 42.0
4.42000, 45.0
4.43000, 45.0
4.44000, 39.0
4.45000, 39.0
4.46000, 38.0
4.47000, 34.0
4.48000, 36.0
4.49000, 42.0
4.50000, 40.0
4.51000, 43.0
4.52000, 49.0
4.53000, 45.0
4.54000, 46.0
4.55000, 48.0
4.56000, 47.0
4.57000, 44.0
4.58000, 41.0
4.59000, 39.0
4.60000, 37.0
4.61000, 39.0
4.62000, 43.0
4.63000, 45.0
4.64000, 38.0
4.65000, 30.0
4.66000, 37.0
4.67000, 46.0
4.68000, 44.0
4.69000, 44.0
4.70000, 40.0
4.71000, 37.0
4.72000, 47.0
4.73000, 41.0
4.74000, 39.0
4.75000, 49.0
4.76000, 42.0
4.77000, 37.0
4.78000, 41.0
4.79000, 40.0
4.80000, 36.0
4.81000, 36.0
4.82000, 35.0
4.83000, 36.0
4.84000, 42.0
4.85000, 37.0
4.86000, 34.0
4.87000, 37.0
4.88000, 38.0
4.89000, 41.0
4.90000, 44.0
4.91000, 42.0
4.92000, 45.0
4.93000, 40.0
4.94000, 35.0
4.95000, 32.0
4.96000, 32.0
4.97000, 35.0
4.98000, 37.0
4.99000, 34.0
5.00000, 31.0
5.01000, 34.0
5.02000, 45.0
5.03000, 48.0
5.04000, 41.0
5.05000, 40.0
5.06000, 38.0
5.07000, 28.0
5.08000, 26.0
5.09000, 35.0
5.10000, 38.0
5.11000, 35.0
5.12000, 31.0
5.13000, 31.0
5.14000, 29.0
5.15000, 44.0
5.16000, 42.0
5.17000, 35.0
5.18000, 34.0
5.19000, 35.0
5.20000, 38.0
5.21000, 35.0
5.22000, 32.0
5.23000, 37.0
5.24000, 39.0
5.25000, 30.0
5.26000, 27.0
5.27000, 27.0
5.28000, 31.0
5.29000, 35.0
5.30000, 33.0
5.31000, 36.0
5.32000, 36.0
5.33000, 31.0
5.34000, 33.0
5.35000, 29.0
5.36000, 30.0
5.37000, 35.0
5.38000, 28.0
5.39000, 25.0
5.40000, 32.0
5.41000, 31.0
5.42000, 32.0
5.43000, 31.0
5.44000, 27.0
5.45000, 37.0
5.46000, 34.0
5.47000, 33.0
5.48000, 37.0
5.49000, 30.0
5.50000, 30.0
5.51000, 33.0
5.52000, 32.0
5.53000, 27.0
5.54000, 27.0
5.55000, 30.0
5.56000, 26.0
5.57000, 24.0
5.58000, 31.0
5.59000, 34.0
5.60000, 33.0
5.61000, 33.0
5.62000, 33.0
5.63000, 31.0
5.64000, 25.0
5.65000, 25.0
5.66000, 29.0
5.67000, 27.0
5.68000, 28.0
5.69000, 32.0
5.70000, 30.0
5.71000, 23.0
5.72000, 25.0
5.73000, 29.0
5.74000, 30.0
5.75000, 33.0
5.76000, 37.0
5.77000, 41.0
5.78000, 45.0
5.79000, 42.0
5.80000, 41.0
5.81000, 47.0
5.82000, 47.0
5.83000, 45.0
5.84000, 52.0
5.85000, 52.0
5.86000, 50.0
5.87000, 43.0
5.88000, 47.0
5.89000, 51.0
5.90000, 39.0
5.91000, 29.0
5.92000, 32.0
5.93000, 34.0
5.94000, 33.0
5.95000, 34.0
5.96000, 26.0
5.97000, 24.0
5.98000, 31.0
5.99000, 30.0
6.00000, 20.0
6.01000, 25.0
6.02000, 27.0
6.03000, 23.0
6.04000, 26.0
6.05000, 29.0
6.06000, 25.0
6.07000, 26.0
6.08000, 29.0
6.09000, 26.0
6.10000, 21.0
6.11000, 22.0
6.12000, 30.0
6.13000, 31.0
6.14000, 31.0
6.15000, 31.0
6.16000, 25.0
6.17000, 25.0
6.18000, 27.0
6.19000, 25.0
6.20000, 25.0
6.21000, 26.0
6.22000, 25.0
6.23000, 22.0
6.24000, 20.0
6.25000, 22.0
6.26000, 26.0
6.27000, 27.0
6.28000, 27.0
6.29000, 22.0
6.30000, 22.0
6.31000, 23.0
6.32000, 19.0
6.33000, 18.0
6.34000, 22.0
6.35000, 26.0
6.36000, 24.0
6.37000, 23.0
6.38000, 24.0
6.39000, 33.0
6.40000, 33.0
6.41000, 25.0
6.42000, 27.0
6.43000, 32.0
6.44000, 36.0
6.45000, 31.0
6.46000, 26.0
6.47000, 30.0
6.48000, 33.0
6.49000, 31.0
6.50000, 26.0
6.51000, 24.0
6.52000, 24.0
6.53000, 29.0
6.54000, 27.0
6.55000, 19.0
6.56000, 17.0
6.57000, 19.0
6.58000, 22.0
6.59000, 19.0
6.60000, 16.0
6.61000, 17.0
6.62000, 19.0
6.63000, 22.0
6.64000, 24.0
6.65000, 22.0
6.66000, 20.0
6.67000, 19.0
6.68000, 20.0
6.69000, 23.0
6.70000, 22.0
6.71000, 22.0
6.72000, 23.0
6.73000, 21.0
6.74000, 17.0
6.75000, 20.0
6.76000, 19.0
6.77000, 15.0
6.78000, 18.0
6.79000, 19.0
6.80000, 25.0
6.81000, 25.0
6.82000, 18.0
6.83000, 20.0
6.84000, 21.0
6.85000, 22.0
6.86000, 18.0
6.87000, 17.0
6.88000, 18.0
6.89000, 19.0
6.90000, 21.0
6.91000, 20.0
6.92000, 20.0
6.93000, 25.0
6.94000, 20.0
6.95000, 14.0
6.96000, 18.0
6.97000, 18.0
6.98000, 18.0
6.99000, 19.0
7.00000, 20.0
7.01000, 23.0
7.02000, 21.0
7.03000, 17.0
7.04000, 19.0
7.05000, 20.0
7.06000, 17.0
7.07000, 13.0
7.08000, 17.0
7.09000, 23.0
7.10000, 20.0
7.11000, 16.0
7.12000, 15.0
7.13000, 13.0
7.14000, 12.0
7.15000, 14.0
7.16000, 16.0
7.17000, 16.0
7.18000, 18.0
7.19000, 17.0
7.20000, 12.0
7.21000, 13.0
7.22000, 14.0
7.23000, 18.0
7.24000, 16.0
7.25000, 15.0
7.26000, 18.0
7.27000, 14.0
7.28000, 12.0
7.29000, 12.0
7.30000, 11.0
7.31000, 12.0
7.32000, 14.0
7.33000, 14.0
7.34000, 15.0
7.35000, 21.0
7.36000, 23.0
7.37000, 22.0
7.38000, 17.0
7.39000, 16.0
7.40000, 17.0
7.41000, 15.0
7.42000, 16.0
7.43000, 15.0
7.44000, 16.0
7.45000, 14.0
7.46000, 12.0
7.47000, 15.0
7.48000, 14.0
7.49000, 14.0
7.50000, 14.0
7.51000, 11.0
7.52000, 15.0
7.53000, 18.0
7.54000, 16.0
7.55000, 15.0
7.56000, 12.0
7.57000, 8.0
7.58000, 12.0
7.59000, 14.0
7.60000, 13.0
7.61000, 14.0
7.62000, 13.0
7.63000, 14.0
7.64000, 16.0
7.65000, 13.0
7.66000, 9.0
7.67000, 12.0
7.68000, 15.0
7.69000, 12.0
7.70000, 9.0
7.71000, 12.0
7.72000, 12.0
7.73000, 12.0
7.74000, 11.0
7.75000, 9.0
7.76000, 15.0
7.77000, 15.0
7.78000, 8.0
7.79000, 11.0
7.80000, 11.0
7.81000, 10.0
7.82000, 9.0
7.83000, 12.0
7.84000, 14.0
7.85000, 11.0
7.86000, 7.0
7.87000, 8.0
7.88000, 8.0
7.89000, 9.0
7.90000, 13.0
7.91000, 14.0
7.92000, 12.0
7.93000, 9.0
7.94000, 10.0
7.95000, 12.0
7.96000, 10.0
7.97000, 13.0
7.98000, 14.0
7.99000, 11.0
8.00000, 10.0
8.01000, 10.0
8.02000, 9.0
8.03000, 9.0
8.04000, 9.0
8.05000, 10.0
8.06000, 10.0
8.07000, 10.0
8.08000, 13.0
8.09000, 12.0
8.10000, 13.0
8.11000, 14.0
8.12000, 10.0
8.13000, 5.0
8.14000, 9.0
8.15000, 11.0
8.16000, 11.0
8.17000, 10.0
8.18000, 6.0
8.19000, 10.0
8.20000, 13.0
8.21000, 11.0
8.22000, 11.0
8.23000, 9.0
8.24000, 8.0
8.25000, 9.0
8.26000, 9.0
8.27000, 7.0
8.28000, 9.0
8.29000, 10.0
8.30000, 8.0
8.31000, 10.0
8.32000, 9.0
8.33000, 8.0
8.34000, 9.0
8.35000, 10.0
8.36000, 11.0
8.37000, 10.0
8.38000, 9.0
8.39000, 6.0
8.40000, 5.0
8.41000, 7.0
8.42000, 9.0
8.43000, 10.0
8.44000, 12.0
8.45000, 8.0
8.46000, 6.0
8.47000, 5.0
8.48000, 6.0
8.49000, 7.0
8.50000, 8.0
8.51000, 10.0
8.52000, 12.0
8.53000, 11.0
8.54000, 6.0
8.55000, 5.0
8.56000, 9.0
8.57000, 10.0
8.58000, 8.0
8.59000, 9.0
8.60000, 7.0
8.61000, 6.0
8.62000, 8.0
8.63000, 11.0
8.64000, 10.0
8.65000, 5.0
8.66000, 5.0
8.67000, 8.0
8.68000, 10.0
8.69000, 9.0
8.70000, 8.0
8.71000, 7.0
8.72000, 6.0
8.73000, 6.0
8.74000, 7.0
8.75000, 5.0
8.76000, 5.0
8.77000, 6.0
8.78000, 6.0
8.79000, 4.0
8.80000, 5.0
8.81000, 7.0
8.82000, 7.0
8.83000, 5.0
8.84000, 4.0
8.85000, 4.0
8.86000, 5.0
8.87000, 8.0
8.88000, 9.0
8.89000, 5.0
8.90000, 5.0
8.91000, 5.0
8.92000, 7.0
8.93000, 9.0
8.94000, 7.0
8.95000, 7.0
8.96000, 4.0
8.97000, 5.0
8.98000, 8.0
8.99000, 8.0
9.00000, 6.0
9.01000, 3.0
9.02000, 4.0
9.03000, 6.0
9.04000, 4.0
9.05000, 5.0
9.06000, 4.0
9.07000, 5.0
9.08000, 7.0
9.09000, 5.0
9.10000, 4.0
9.11000, 4.0
9.12000, 3.0
9.13000, 5.0
9.14000, 3.0
9.15000, 2.0
9.16000, 4.0
9.17000, 5.0
9.18000, 4.0
9.19000, 3.0
9.20000, 5.0
9.21000, 5.0
9.22000, 6.0
9.23000, 8.0
9.24000, 6.0
9.25000, 4.0
9.26000, 3.0
9.27000, 5.0
9.28000, 6.0
9.29000, 3.0
9.30000, 2.0
9.31000, 4.0
9.32000, 5.0
9.33000, 4.0
9.34000, 4.0
9.35000, 5.0
9.36000, 4.0
9.37000, 4.0
9.38000, 4.0
9.39000, 2.0
9.40000, 2.0
9.41000, 4.0
9.42000, 3.0
9.43000, 2.0
9.44000, 2.0
9.45000, 3.0
9.46000, 4.0
9.47000, 2.0
9.48000, 1.0
9.49000, 2.0
9.50000, 3.0
9.51000, 4.0
9.52000, 2.0
9.53000, 2.0
9.54000, 4.0
9.55000, 3.0
9.56000, 1.0
9.57000, 3.0
9.58000, 3.0
9.59000, 2.0
9.60000, 1.0
9.61000, 3.0
9.62000, 3.0
9.63000, 2.0
9.64000, 1.0
9.65000, 2.0
9.66000, 2.0
9.67000, 4.0
9.68000, 5.0
9.69000, 4.0
9.70000, 2.0
9.71000, 2.0
9.72000, 2.0
9.73000, 2.0
9.74000, 0.0
9.75000, 1.0
9.76000, 2.0
9.77000, 1.0
9.78000, 1.0
9.79000, 2.0
9.80000, 1.0
9.81000, 1.0
9.82000, 2.0
9.83000, 2.0
9.84000, 2.0
9.85000, 1.0
9.86000, 2.0
9.87000, 1.0
9.88000, 0.0
9.89000, 2.0
9.90000, 2.0
9.91000, 0.0
9.92000, 1.0
9.93000, 1.0
9.94000, 2.0
9.95000, 1.0
9.96000, 0.0
9.97000, 1.0
9.98000, 1.0
9.99000, 2.0
10.00000, 4.0
10.01000, 3.0
10.02000, 0.0
10.03000, 1.0
10.04000, 2.0
10.05000, 1.0
10.06000, 0.0
10.07000, 0.0
10.08000, 0.0
10.09000, 0.0
10.10000, 0.0
10.11000, 1.0
10.12000, 1.0
10.13000, 0.0
#ENDOFDATA   :